Packet number,Gyroscope X (deg/s),Gyroscope Y (deg/s),Gyroscope Z (deg/s),Accelerometer X (g),Accelerometer Y (g),Accelerometer Z (g),Magnetometer X (G),Magnetometer Y (G),Magnetometer Z (G)
200001,4.0625,10.0625,0.4375,-0.1113281,0.06396484,0.9780273,0.008789063,0.06542969,-0.2548828
200002,5.9375,9.625,1.4375,-0.1152344,0.07177734,0.9741211,0.008789063,0.06542969,-0.2548828
200004,7.8125,8.75,2.625,-0.1191406,0.08349609,0.9819336,0.01123047,0.0625,-0.2573242
200005,9.25,7.75,3,-0.1191406,0.09130859,0.9780273,0.01123047,0.0625,-0.2548828
200007,10.0625,7.125,3.625,-0.1113281,0.1030273,0.9707031,0.01123047,0.0625,-0.2548828
200008,11.0625,6.875,3.8125,-0.1035156,0.1142578,0.9707031,0.01025391,0.06005859,-0.2573242
200010,11.5,6.8125,4.125,-0.1035156,0.1220703,0.9667969,0.01025391,0.06005859,-0.2548828
200011,11.625,6.5625,4.125,-0.1035156,0.1298828,0.9707031,0.01025391,0.06005859,-0.2548828
200013,11.875,6.6875,4,-0.09179688,0.1376953,0.9550781,0.01025391,0.05859375,-0.2548828
200014,12.5,8,4.0625,-0.06445313,0.1069336,0.9511719,0.008789063,0.0625,-0.253418
200016,12.5,10.625,4.125,-0.04101563,0.1220703,0.9628906,0.008789063,0.0625,-0.253418
200017,12.5625,12.375,3.8125,-0.06445313,0.1298828,0.9472656,0.007324219,0.06005859,-0.2573242
200019,11.25,12.9375,3.5,-0.08398438,0.1689453,0.9589844,0.008789063,0.05859375,-0.2519531
200020,10.8125,13.25,3.375,-0.09179688,0.1572266,0.9628906,0.008789063,0.05859375,-0.2519531
200022,9.625,12.6875,3.1875,-0.1269531,0.1728516,0.9667969,0.01025391,0.06005859,-0.2558594
200023,9.125,12.5,3.125,-0.09179688,0.1689453,0.9667969,0.01123047,0.06152344,-0.2548828
200025,8.875,12.8125,3.0625,-0.1152344,0.1611328,0.9819336,0.01123047,0.06152344,-0.2548828
200026,7.625,11.375,3.1875,-0.1738281,0.199707,1.005371,0.01269531,0.05712891,-0.2548828
200028,7.9375,8.625,3.0625,-0.1660156,0.1611328,0.9975586,0.01123047,0.06152344,-0.2548828
200029,7.4375,7.375,3.4375,-0.1503906,0.1767578,0.9936523,0.01123047,0.06152344,-0.2548828
200031,7.0625,6.1875,3.625,-0.1503906,0.1650391,0.9936523,0.01123047,0.06005859,-0.2558594
200032,6.625,5.75,3.6875,-0.1347656,0.1767578,0.9975586,0.01269531,0.05859375,-0.2558594
200034,5.4375,5,3.375,-0.1269531,0.2075195,0.9780273,0.01269531,0.05859375,-0.2558594
200035,4.375,5,2.75,-0.1191406,0.199707,0.9780273,0.01269531,0.06005859,-0.2558594
200037,3.3125,5.4375,2.1875,-0.1113281,0.215332,0.9628906,0.01123047,0.06005859,-0.2573242
200038,2,5.875,1.5,-0.09960938,0.2075195,0.9707031,0.01123047,0.06005859,-0.2573242
200040,0.125,7.25,0.5,-0.07617188,0.2348633,0.9707031,0.01269531,0.05859375,-0.2558594
200041,-1.375,9.0625,-0.6875,-0.06445313,0.2387695,0.9589844,0.01416016,0.05712891,-0.2548828
200043,-3.125,11.4375,-2.1875,-0.03759766,0.2114258,0.9667969,0.01416016,0.05712891,-0.2548828
200044,-4.375,14.0625,-3.6875,-0.03369141,0.1958008,0.9589844,0.01123047,0.05859375,-0.2558594
200046,-5.625,16.6875,-5.5625,-0.02587891,0.1806641,0.9741211,0.01416016,0.06005859,-0.2573242
200047,-6.8125,20.375,-7.125,-0.02197266,0.2387695,0.9589844,0.01416016,0.06005859,-0.2573242
200049,-8.1875,22.9375,-7.75,-0.03759766,0.2583008,0.9394531,0.01416016,0.06005859,-0.2558594
200050,-7.8125,24.0625,-6.6875,-0.1230469,0.1376953,0.9628906,0.01416016,0.05859375,-0.253418
200052,-5.875,22.125,-4.8125,-0.1699219,0.08740234,0.9819336,0.01416016,0.05859375,-0.253418
200053,-4.4375,19.125,-3.375,-0.1928711,0.1611328,0.9858398,0.01660156,0.06005859,-0.2587891
200055,-3.9375,16.6875,-2.1875,-0.1699219,0.1572266,0.9897461,0.01416016,0.06152344,-0.2548828
200056,-2.5625,15,-0.875,-0.1816406,0.1337891,0.9819336,0.01416016,0.06152344,-0.2548828
200058,-0.875,12.625,0.5625,-0.2124023,0.1142578,1.001465,0.01806641,0.05859375,-0.2573242
200059,-0.75,10.125,2,-0.2866211,0.1958008,0.9858398,0.01660156,0.05859375,-0.2558594
200061,-1.9375,3.625,2.375,-0.09960938,0.1572266,0.9936523,0.01660156,0.05859375,-0.2558594
200062,0.6875,13.0625,2.875,0.03613281,0.09130859,1.043945,0.01660156,0.06152344,-0.2548828
200064,-0.0625,10.5625,3.1875,-0.2241211,0.2036133,0.9819336,0.01660156,0.05859375,-0.2548828
200065,-0.75,7.5625,2.0625,-0.1816406,0.2114258,1.001465,0.01660156,0.05859375,-0.2548828
200067,-0.25,8.875,1.875,-0.1542969,0.1650391,1.016602,0.01806641,0.06152344,-0.2558594
200068,0.4375,8.0625,1.9375,-0.1738281,0.1689453,0.9975586,0.01513672,0.06152344,-0.253418
200070,0.75,8.3125,1.3125,-0.1582031,0.1767578,1.024414,0.01513672,0.06152344,-0.253418
200071,1.625,8.4375,1,-0.1582031,0.1572266,1.02832,0.01904297,0.06005859,-0.2548828
200073,3.0625,8.9375,1,-0.1928711,0.1494141,1.047363,0.01806641,0.05859375,-0.2573242
200074,5,7.625,2.4375,-0.2241211,0.1220703,1.02832,0.01806641,0.05859375,-0.2573242
200076,7.75,5.4375,4.5625,-0.2319336,0.07958984,1.02832,0.01904297,0.06005859,-0.2573242
200077,11.375,5.0625,7.25,-0.2045898,0.06005859,1.101563,0.02050781,0.06005859,-0.2558594
200079,16.75,5.0625,9.75,-0.2280273,-0.009277344,1.117188,0.02050781,0.06005859,-0.2558594
200080,25.0625,2.9375,12.3125,-0.2866211,-0.04785156,1.147949,0.01904297,0.05859375,-0.2573242
200082,33.1875,-2,14.9375,-0.3603516,-0.05566406,1.155762,0.02050781,0.05712891,-0.2548828
200083,39.1875,-1,16.4375,-0.1503906,0.02148438,1.117188,0.02050781,0.05712891,-0.2548828
200085,41.3125,11.375,16,0.07519531,0.1767578,1.140137,0.02197266,0.05859375,-0.2558594
200087,41.0625,27.8125,13.1875,0.1801758,0.2583008,1.13623,0.02294922,0.05615234,-0.2558594
200089,33.25,47.125,10.375,0.3203125,0.4057617,0.9707031,0.02294922,0.05615234,-0.2558594
200090,21.25,72.125,6.0625,0.6005859,0.4248047,0.8896484,0.02294922,0.05322266,-0.2558594
200092,6.125,111.375,0.375,0.9238281,0.4091797,0.9047852,0.02685547,0.0546875,-0.2573242
200093,-5.75,159.5,-8.4375,1.266602,0.3393555,0.8818359,0.02685547,0.0546875,-0.2573242
200095,-6.5,224.75,-20.25,1.554688,0.08349609,1.20166,0.02929688,0.05615234,-0.2548828
200096,8,294.25,-28.3125,1.286133,-0.05175781,1.552734,0.03710938,0.0546875,-0.2548828
200098,33.375,365.6875,-36.875,1.441895,0.1142578,2.003906,0.03710938,0.0546875,-0.2548828
200099,91,473.125,-82.25,2.8125,-0.4980469,2.897949,0.04638672,0.0546875,-0.2558594
200101,149.9375,625.375,-104.75,2.32959,-0.2148438,3.680664,0.06054688,0.0546875,-0.2519531
200102,175.8125,718.25,-138.1875,3.373047,0.6113281,2.801758,0.06054688,0.0546875,-0.2519531
200104,235.875,880,-176,2.652832,0.4365234,4.448242,0.07617188,0.04785156,-0.2490234
200105,324.875,930,-203.8125,2.189453,-1.200684,3.557617,0.09814453,0.04248047,-0.2421875
200107,431.9375,980.6875,-215.0625,1.675293,-1.270508,4.467285,0.09814453,0.04248047,-0.2421875
200108,491.6875,931.375,-204.375,5.530273,-0.300293,7.401367,0.1240234,0.03759766,-0.2329102
200110,503.1875,915.8125,-211.875,6.979004,0.7119141,7.759766,0.1420898,0.02539063,-0.2231445
200111,467.8125,787.0625,-185.625,5.713379,1.313477,7.235352,0.1420898,0.02539063,-0.2231445
200113,350.1875,521.375,-139.875,-0.7421875,3.199707,7.24707,0.1616211,0.01464844,-0.2109375
200114,191.1875,130.875,-69.9375,-2.961426,4.196777,6.387207,0.1723633,0.01220703,-0.2026367
200116,12.9375,-171.125,-17.5625,-0.956543,3.995117,5.523926,0.1723633,0.01220703,-0.2026367
200117,-107.125,-279.5,12.1875,2.680176,2.411621,3.464844,0.1723633,0.01220703,-0.2041016
200119,-133.3125,-242.75,27.5,5.164551,0.6113281,1.64502,0.168457,0.01074219,-0.206543
200120,-121.0625,-125.5,20.375,5.79541,1.092285,0.8085938,0.168457,0.01074219,-0.206543
200122,-91.75,-24.8125,13.875,5.070801,-0.9833984,0.4077148,0.1630859,0.01611328,-0.2080078
200123,-74.0625,32.5625,-7.8125,3.606934,-0.5449219,0.2265625,0.1606445,0.02001953,-0.2094727
200125,-53.75,41.3125,-22.25,2.422852,-0.4980469,0.4848633,0.1606445,0.02001953,-0.2094727
200126,-31.625,8.75,-36.5625,1.652344,-0.3623047,0.7543945,0.1606445,0.01855469,-0.2094727
200128,-11.75,-38.25,-46.0625,1.387207,-0.2265625,1.070801,0.1616211,0.01855469,-0.2094727
200129,0.5625,-93.3125,-49.8125,1.578125,0.02539063,1.355957,0.1616211,0.01855469,-0.2094727
200131,3.5625,-129.9375,-48.6875,1.901367,0.2270508,1.494629,0.1591797,0.02294922,-0.2094727
200132,-2.6875,-150.25,-42.4375,2.29834,0.4248047,1.564453,0.1567383,0.02539063,-0.2109375
200134,-16.5,-157.8125,-33.6875,2.442383,0.5683594,1.548828,0.1567383,0.02539063,-0.2109375
200135,-35.5,-164.5625,-22.875,2.310059,0.6538086,1.463867,0.1538086,0.02001953,-0.2133789
200137,-59.1875,-176.25,-10.5625,2.002441,0.6811523,1.317383,0.1489258,0.02294922,-0.2177734
200138,-83.1875,-192.5,0.875,1.69873,0.6499023,1.174805,0.1489258,0.02294922,-0.2177734
200140,-105.1875,-209.3125,10,1.507813,0.5493164,1.066895,0.1450195,0.02685547,-0.2192383
200141,-123.0625,-223.5,14.6875,1.418457,0.394043,0.9589844,0.1396484,0.02539063,-0.2246094
200143,-132.8125,-232.375,14.875,1.371582,0.2114258,0.8701172,0.1396484,0.02539063,-0.2246094
200144,-133.75,-237.5625,9.875,1.313477,0.04833984,0.8203125,0.1347656,0.03076172,-0.2260742
200146,-126.4375,-240.9375,2,1.243164,-0.06347656,0.8276367,0.1269531,0.03613281,-0.2270508
200147,-113.3125,-243.6875,-7.3125,1.169434,-0.09472656,0.8701172,0.1269531,0.03613281,-0.2270508
200149,-96.5625,-247.5625,-17.125,1.103027,-0.06738281,0.9858398,0.121582,0.03857422,-0.2314453
200150,-80,-252.4375,-24,1.017578,0.01367188,1.13623,0.1162109,0.03857422,-0.2329102
200152,-65.625,-259.3125,-28.25,0.9394531,0.1611328,1.302246,0.1162109,0.03857422,-0.2329102
200153,-55.4375,-267.1875,-29.875,0.8422852,0.3242188,1.459961,0.1098633,0.04248047,-0.2368164
200155,-49.0625,-276.4375,-27.8125,0.7255859,0.4755859,1.587402,0.1035156,0.046875,-0.2382813
200156,-46.4375,-288,-22.75,0.565918,0.5957031,1.641113,0.1035156,0.046875,-0.2382813
200158,-46.25,-300.9375,-15.5625,0.4331055,0.6850586,1.679688,0.09423828,0.04541016,-0.2436523
200159,-46.9375,-313.75,-6.625,0.328125,0.7080078,1.683594,0.08789063,0.046875,-0.2436523
200161,-47.75,-325.125,2.1875,0.2270508,0.7197266,1.629883,0.08789063,0.046875,-0.2436523
200162,-48.4375,-336.1875,10.1875,0.1293945,0.7041016,1.575684,0.07861328,0.046875,-0.246582
200164,-47.4375,-344.8125,16.75,0.06347656,0.6230469,1.537109,0.07080078,0.04785156,-0.2490234
200165,-43.625,-352.25,22.25,0.02832031,0.5644531,1.518066,0.07080078,0.04785156,-0.2490234
200167,-37.1875,-358.0625,25.0625,0.004882813,0.4716797,1.529297,0.06201172,0.05078125,-0.2504883
200168,-29.5,-363.0625,25.5,0.0009765625,0.4018555,1.533203,0.05273438,0.05322266,-0.2519531
200170,-20.375,-366.75,24.9375,-0.006347656,0.3354492,1.529297,0.05273438,0.05322266,-0.2519531
200171,-10.25,-368.75,23.9375,0.0009765625,0.3164063,1.525879,0.04003906,0.0546875,-0.2548828
200173,0.25,-368.6875,23.0625,-0.002441406,0.3393555,1.564453,0.03076172,0.0546875,-0.2558594
200174,9.9375,-367.25,23.5,-0.02978516,0.3862305,1.614258,0.03076172,0.0546875,-0.2558594
200176,18.125,-365.625,25.6875,-0.05664063,0.4482422,1.707031,0.02050781,0.0546875,-0.2587891
200177,23.6875,-362.9375,29.625,-0.07617188,0.5336914,1.791504,0.01025391,0.05615234,-0.2558594
200179,26.375,-360.5625,34.9375,-0.1347656,0.5957031,1.899414,0.01025391,0.05615234,-0.2558594
200180,27,-359.625,41.25,-0.2241211,0.6655273,1.988281,0.0009765625,0.05224609,-0.2573242
200182,26.4375,-360.1875,48.6875,-0.3022461,0.7080078,2.04248,-0.008789063,0.0546875,-0.2573242
200185,25.3125,-362.1875,57.5,-0.3798828,0.7314453,2.077148,-0.008789063,0.0546875,-0.2573242
200187,23.5,-366,66.25,-0.4697266,0.7197266,2.092285,-0.01806641,0.05224609,-0.2602539
200188,22.6875,-369.9375,74.4375,-0.4814453,0.6928711,2.104004,-0.02832031,0.05224609,-0.2548828
200190,21.6875,-372.625,81.25,-0.4345703,0.6499023,2.134766,-0.02832031,0.05224609,-0.2548828
200191,21.375,-371.4375,86.625,-0.3295898,0.5996094,2.192871,-0.03857422,0.04931641,-0.2573242
200193,22.1875,-367.4375,90.1875,-0.2202148,0.5839844,2.312012,-0.04882813,0.05224609,-0.253418
200194,22.625,-361.5625,93.25,-0.1464844,0.6113281,2.493164,-0.04882813,0.05224609,-0.253418
200196,22.5,-357.0625,97.1875,-0.1386719,0.6772461,2.70166,-0.05810547,0.05078125,-0.2519531
200197,21.8125,-355.4375,101.75,-0.2045898,0.7509766,2.894531,-0.06738281,0.05078125,-0.2490234
200199,21.5625,-357.5,108,-0.3295898,0.7895508,3.041016,-0.06738281,0.05078125,-0.2490234
200200,21.1875,-363.125,115.1875,-0.4267578,0.8208008,3.102539,-0.07763672,0.05078125,-0.2480469
200202,21.5625,-368.75,123.125,-0.5356445,0.8286133,3.129395,-0.08789063,0.05224609,-0.2436523
200203,22.375,-372.625,131.1875,-0.671875,0.8129883,3.083008,-0.08789063,0.05224609,-0.2436523
200205,23.25,-374.6875,138.9375,-0.7695313,0.7895508,3.021484,-0.09423828,0.05224609,-0.2412109
200206,25.25,-373.25,146.375,-0.862793,0.7392578,2.959961,-0.1049805,0.05078125,-0.2353516
200208,27.3125,-369.625,153.5625,-0.9716797,0.6967773,2.925293,-0.1049805,0.05078125,-0.2353516
200209,28.625,-365.5,159.875,-1.104492,0.6655273,2.921387,-0.112793,0.0546875,-0.2314453
200211,29.25,-358.3125,166.1875,-1.268066,0.6616211,2.848145,-0.1230469,0.05615234,-0.2270508
200212,27.4375,-350.5625,172.5625,-1.404297,0.6655273,2.786621,-0.1230469,0.05615234,-0.2270508
200214,22.25,-342.4375,178.0625,-1.614258,0.7158203,2.608887,-0.1308594,0.05615234,-0.2260742
200215,10.6875,-329.875,181.4375,-1.641602,0.875,2.45459,-0.137207,0.06005859,-0.2192383
200217,-6.375,-313.875,183.4375,-1.805176,0.9604492,2.258301,-0.137207,0.06005859,-0.2192383
200218,-25.25,-293.6875,182.75,-1.917969,1.03418,2.146484,-0.1435547,0.0625,-0.2148438
200220,-41.1875,-273.8125,178.0625,-2.140137,1.03418,1.976563,-0.1489258,0.06396484,-0.2094727
200221,-52.25,-256.3125,168.5,-2.385254,0.940918,1.822754,-0.1489258,0.06396484,-0.2094727
200223,-56.4375,-240.8125,151.8125,-2.653809,0.7895508,1.668457,-0.1538086,0.06787109,-0.2026367
200224,-51.4375,-229.5625,129.125,-2.899414,0.5722656,1.521973,-0.1591797,0.07177734,-0.2011719
200226,-35.6875,-223.1875,101.625,-3.15625,0.3007813,1.429199,-0.1591797,0.07177734,-0.2011719
200227,-8.5,-221.75,69.625,-3.343262,0.01757813,1.402344,-0.1645508,0.07617188,-0.1943359
200229,25.375,-222.0625,36.25,-3.424805,-0.21875,1.479492,-0.1669922,0.07470703,-0.1943359
200230,61.875,-218.8125,2.625,-3.467773,-0.3583984,1.518066,-0.1669922,0.07470703,-0.1943359
200232,96.0625,-210.375,-28.9375,-3.495117,-0.3466797,1.518066,-0.1733398,0.07470703,-0.1875
200233,119.6875,-194.875,-52.6875,-3.56543,-0.2382813,1.467773,-0.1772461,0.07324219,-0.1845703
200235,131.3125,-175.25,-66.9375,-3.751953,0.005859375,1.321289,-0.1772461,0.07324219,-0.1845703
200236,127.5625,-153.0625,-69.1875,-3.946777,0.3046875,1.15918,-0.1811523,0.06933594,-0.1821289
200238,111.0625,-126.4375,-62.1875,-4.12207,0.5566406,0.9897461,-0.1850586,0.06542969,-0.1791992
200239,84.75,-97.75,-45.8125,-4.297363,0.7236328,0.7504883,-0.1850586,0.06542969,-0.1791992
200241,48.125,-70.0625,-28,-4.534668,0.921875,0.4887695,-0.1865234,0.06152344,-0.1791992
200242,7.1875,-43.1875,-8.75,-4.694336,0.8208008,0.2573242,-0.1879883,0.06152344,-0.1777344
200244,-30.875,-17,5.4375,-4.717773,0.6113281,0.02978516,-0.1879883,0.06152344,-0.1777344
200245,-57.9375,8.5,10.6875,-4.608887,0.2773438,-0.06591797,-0.1879883,0.06005859,-0.1762695
200247,-71.3125,35.375,6.5625,-4.378906,-0.07519531,-0.03125,-0.1879883,0.0625,-0.1762695
200248,-72.8125,64.8125,-5.6875,-4.133789,-0.2885742,0.09912109,-0.1879883,0.0625,-0.1762695
200250,-66.375,90.4375,-21,-3.950684,-0.331543,0.253418,-0.1879883,0.06542969,-0.1791992
200251,-57.4375,116.3125,-37.0625,-3.759766,-0.2070313,0.5039063,-0.1865234,0.06396484,-0.1791992
200253,-50.1875,136.25,-49.3125,-3.596191,0.01757813,0.7583008,-0.1865234,0.06396484,-0.1791992
200254,-45.8125,152.75,-56.5,-3.432617,0.2890625,1.024414,-0.1826172,0.06542969,-0.1821289
200256,-46.1875,165.875,-56.875,-3.276855,0.6191406,1.317383,-0.1826172,0.06689453,-0.1835938
200257,-52.4375,175.625,-50.6875,-3.136719,0.9140625,1.614258,-0.1826172,0.06689453,-0.1835938
200259,-62.5625,179.625,-39.25,-3.047363,1.100098,1.853516,-0.1772461,0.06542969,-0.1860352
200260,-72.375,157.625,-23.5625,-2.731934,1.197266,1.749512,-0.1762695,0.06396484,-0.1914063
200262,-119.375,-11.375,50.5625,-1.563965,3.032715,2.751465,-0.1762695,0.06396484,-0.1914063
200263,-239.5625,-40.8125,102.125,-0.1660156,1.810547,1.969238,-0.1723633,0.06933594,-0.1904297
200265,-264.125,-95.375,157.6875,2.36084,-0.4399414,0.6079102,-0.1708984,0.07714844,-0.1889648
200266,-158.5,-100.75,113.5,4.615234,-1.813965,-4.033203,-0.1708984,0.07714844,-0.1889648
200268,108,83.125,82.1875,7.94873,-6.913086,-7.800293,-0.1733398,0.08398438,-0.1860352
200269,227.75,786.8125,-74.0625,7.94873,-4.114746,-3.374023,-0.1708984,0.08154297,-0.1860352
200271,174.9375,1224.5,-147.125,4.774902,0.1030273,-1.25,-0.1708984,0.08154297,-0.1860352
200272,105.25,1061.25,-155.875,-6.127441,0.4018555,0.8125,-0.1503906,0.07617188,-0.2080078
200274,63.75,696.6875,-108.9375,-7.996582,0.08740234,4.640625,-0.1254883,0.06933594,-0.2246094
200275,48.6875,309.1875,-52.125,-7.996582,1.480469,6.121094,-0.1254883,0.06933594,-0.2246094
200277,33.0625,170.9375,-12.9375,-3.604004,1.212891,5.304199,-0.112793,0.06689453,-0.2353516
200278,41.4375,154.1875,-20.4375,-0.4736328,-0.04394531,3.457031,-0.1074219,0.06396484,-0.2353516
200280,67,198.5,-36.9375,1.103027,-0.6923828,2.208008,-0.1074219,0.06396484,-0.2353516
200282,70,255.9375,-48.4375,1.671387,-0.009277344,2.23877,-0.1049805,0.06542969,-0.2338867
200284,54.875,297.8125,-59,1.04834,0.2426758,2.500977,-0.09814453,0.06005859,-0.2382813
200285,63.375,289.8125,-54.0625,0.199707,0.2075195,2.543457,-0.09814453,0.06005859,-0.2382813
200287,74.9375,261.375,-45.8125,-0.4033203,0.28125,2.335449,-0.09033203,0.06005859,-0.2421875
200288,76.5625,232.5625,-42.125,-0.6489258,0.3510742,1.741699,-0.08251953,0.05712891,-0.2436523
200290,71.9375,212.75,-40.5625,-0.5981445,0.2583008,1.229004,-0.08251953,0.05712891,-0.2436523
200291,67.625,200.3125,-42.625,-0.3759766,0.1069336,0.9472656,-0.07910156,0.0546875,-0.2480469
200293,66.625,196.5,-47,-0.08007813,0.03320313,0.8896484,-0.07128906,0.05224609,-0.2490234
200294,73.9375,187.0625,-35.1875,0.3984375,-0.2768555,0.847168,-0.07128906,0.05224609,-0.2490234
200296,115.4375,199.3125,75.5625,2.734375,1.189453,2.500977,-0.06738281,0.05224609,-0.2490234
200297,42.875,347.4375,32.75,3.19043,2.951172,3.696289,-0.05957031,0.046875,-0.2519531
200299,-6.1875,393.5,-40.3125,0.3203125,1.212891,2.894531,-0.05957031,0.046875,-0.2519531
200300,-7.6875,321.8125,-31.125,-2.576172,0.3046875,1.402344,-0.05273438,0.046875,-0.2573242
200302,-20.4375,218.625,-6.875,-2.634766,0.3588867,1.333008,-0.04248047,0.046875,-0.2573242
200303,-34,162.5625,-3.875,-1.084961,0.5683594,1.741699,-0.04248047,0.046875,-0.2573242
200305,-27.9375,167.5,-20.0625,0.2036133,0.02929688,1.922852,-0.03613281,0.04931641,-0.2587891
200306,-13.875,178.0625,-23.6875,0.2583008,-0.3198242,1.105469,-0.03222656,0.046875,-0.2587891
200308,-7.9375,183.0625,-24.25,0.152832,-0.1176758,0.7431641,-0.03222656,0.046875,-0.2587891
200309,-9.1875,191.3125,-26.625,0.2231445,0.2617188,0.8046875,-0.02587891,0.04541016,-0.2587891
200311,-19.5,203.0625,-35.0625,0.1958008,0.5566406,0.9741211,-0.02050781,0.04931641,-0.2558594
200312,-29.5625,206.375,-42.5625,-0.1347656,0.5800781,0.9243164,-0.02050781,0.04931641,-0.2558594
200314,-41.0625,194.0625,-47.5,-0.4853516,0.4599609,0.9589844,-0.01660156,0.04931641,-0.2602539
200315,-49.1875,173.75,-48.5,-0.6450195,0.4365234,1.097656,-0.01123047,0.05078125,-0.2617188
200317,-57,151.375,-48.0625,-0.6953125,0.4443359,1.209473,-0.01123047,0.05078125,-0.2617188
200318,-62.4375,129.75,-46.5,-0.6914063,0.3901367,1.221191,-0.006347656,0.05224609,-0.2617188
200320,-66.6875,108.3125,-42.625,-0.6450195,0.3164063,1.170898,-0.004882813,0.05224609,-0.2617188
200321,-68.0625,94.75,-38.8125,-0.4892578,0.2734375,1.236328,-0.004882813,0.05224609,-0.2617188
200323,-67.1875,82.0625,-35.9375,-0.4697266,0.2192383,1.244141,0,0.05224609,-0.2587891
200324,-64,68.375,-30.6875,-0.5473633,0.1650391,1.302246,0,0.05712891,-0.2573242
200326,-60,51.6875,-25.6875,-0.559082,0.1298828,1.352051,0,0.05712891,-0.2573242
200327,-52.8125,37.8125,-21.3125,-0.4619141,0.02929688,1.34082,0,0.05859375,-0.2573242
200329,-46.375,27.6875,-18,-0.2983398,-0.02880859,1.182617,0.003417969,0.06005859,-0.2558594
200330,-40.75,25.4375,-15.5625,-0.1582031,0.03662109,1.124512,0.003417969,0.06005859,-0.2558594
200332,-36.75,25.6875,-14.375,-0.1308594,0.06396484,1.105469,0.002441406,0.0625,-0.2558594
200333,-32.1875,23.8125,-12.5625,-0.1738281,0.04833984,1.124512,0.006347656,0.06152344,-0.2587891
200335,-25.9375,20.5,-11.3125,-0.2319336,0.01367188,1.20166,0.006347656,0.06152344,-0.2587891
200336,-16.25,13.8125,-10.125,-0.2514648,-0.04394531,1.236328,0.003417969,0.0625,-0.2573242
200338,-9.875,7.4375,-6.625,-0.2866211,-0.02880859,1.166992,0.003417969,0.0625,-0.2602539
200339,-3.6875,0.75,-3.9375,-0.2280273,-0.02099609,1.120605,0.003417969,0.0625,-0.2602539
200341,0.9375,-0.3125,-2.0625,-0.1464844,0.01367188,1.089844,0.003417969,0.06689453,-0.2558594
200342,4.5625,-1.0625,-0.625,-0.1230469,0.02929688,1.047363,0.003417969,0.06396484,-0.2587891
200344,8.125,-1.4375,0.5625,-0.09960938,0.04052734,1.047363,0.003417969,0.06396484,-0.2587891
200345,11.3125,-1.4375,1.5,-0.1152344,0.06396484,1.036133,0.003417969,0.06396484,-0.2587891
200347,13.375,-2.5,2.375,-0.1035156,0.08349609,1.02832,0.003417969,0.0625,-0.2573242
200348,15.5625,-2.875,3.125,-0.1113281,0.09521484,1.024414,0.003417969,0.0625,-0.2573242
200350,17.375,-3.1875,3.5625,-0.1113281,0.1030273,1.024414,0.004882813,0.06396484,-0.2558594
200351,18.5,-4.3125,4.125,-0.1308594,0.1181641,1.024414,0.004882813,0.06152344,-0.2587891
200353,19.3125,-6.5625,4.4375,-0.1347656,0.1376953,1.032227,0.004882813,0.06152344,-0.2587891
200354,19.125,-8.25,5.0625,-0.1347656,0.1494141,1.036133,0.003417969,0.05859375,-0.2587891
200356,18.9375,-9.375,4.9375,-0.1191406,0.1611328,1.032227,0.002441406,0.0625,-0.2587891
200357,18.3125,-10.3125,5.1875,-0.1113281,0.1728516,1.020508,0.002441406,0.0625,-0.2587891
200359,17.25,-10.9375,4.8125,-0.1074219,0.1728516,1.020508,0.003417969,0.05859375,-0.2587891
200360,15.625,-11.9375,4.625,-0.1035156,0.199707,1.012695,0.002441406,0.06152344,-0.2587891
200362,13.75,-12.4375,3.9375,-0.09179688,0.215332,1.001465,0.002441406,0.06152344,-0.2587891
200363,11.3125,-12.375,3.3125,-0.07226563,0.230957,0.9858398,0.004882813,0.06005859,-0.2573242
200365,9.1875,-11.3125,2.25,-0.06054688,0.230957,0.9741211,0.002441406,0.06152344,-0.2558594
200366,6.875,-10.125,1.3125,-0.04882813,0.215332,0.9707031,0.002441406,0.06152344,-0.2558594
200368,4.9375,-8.9375,0.625,-0.04882813,0.2036133,0.9667969,0.0009765625,0.05712891,-0.2602539
200369,3.4375,-7.5,-0.0625,-0.04492188,0.1958008,0.9667969,0.002441406,0.05712891,-0.2573242
200371,2.4375,-6.125,-0.5,-0.05273438,0.1806641,0.9667969,0.002441406,0.05712891,-0.2573242
200372,1.4375,-4.875,-0.625,-0.05273438,0.1650391,0.9628906,0.002441406,0.06005859,-0.2558594
200374,1.1875,-4,-0.75,-0.05664063,0.1650391,0.9780273,0.002441406,0.06152344,-0.2587891
200375,1,-3.25,-0.8125,-0.06054688,0.1572266,0.9707031,0.002441406,0.06152344,-0.2587891
200377,1.1875,-3,-0.625,-0.07226563,0.1416016,0.9741211,0.0009765625,0.05859375,-0.2573242
200380,1.8125,-2.8125,-0.375,-0.07226563,0.1220703,0.9819336,0.002441406,0.06005859,-0.2587891
200382,3.125,-3.125,0.3125,-0.08007813,0.1069336,0.9897461,0.002441406,0.06005859,-0.2587891
200383,4.3125,-3.6875,1.125,-0.09179688,0.1108398,0.9858398,0.0009765625,0.06152344,-0.2587891
200385,5.625,-4.25,1.6875,-0.09179688,0.1069336,0.9858398,0.002441406,0.05859375,-0.2617188
200386,7.125,-4.5,2.3125,-0.08789063,0.09521484,0.9819336,0.002441406,0.05859375,-0.2617188
200388,8.75,-5.4375,3.1875,-0.08398438,0.08349609,0.9936523,0.0009765625,0.05859375,-0.2602539
200389,10.8125,-6.5,4.3125,-0.1074219,0.07958984,0.9819336,0.003417969,0.06005859,-0.2573242
200391,12.625,-8.1875,5.25,-0.1074219,0.07568359,0.9819336,0.003417969,0.06005859,-0.2573242
200392,13.6875,-9.8125,6.3125,-0.09960938,0.09130859,0.9780273,0.0009765625,0.06005859,-0.2602539
200394,14.5625,-10.75,7.3125,-0.07226563,0.09521484,0.9550781,0.003417969,0.05615234,-0.2602539
200395,14.625,-10.1875,7.375,-0.04492188,0.1181641,0.9433594,0.003417969,0.05615234,-0.2602539
200397,14.625,-8.125,7.4375,-0.01416016,0.1416016,0.9243164,0.004882813,0.05615234,-0.2587891
200398,13.5,-6.25,7.0625,-0.01025391,0.1650391,0.9165039,0.002441406,0.05615234,-0.2587891
200400,12.25,-3.5625,6.4375,-0.006347656,0.1806641,0.9125977,0.002441406,0.05615234,-0.2587891
200401,10.5,-0.6875,5.625,0.008789063,0.199707,0.8974609,0.002441406,0.05224609,-0.2602539
200403,7.9375,2.625,4.6875,0.02441406,0.215332,0.8896484,0.0009765625,0.0546875,-0.2602539
200404,4.8125,7.125,3.125,0.05175781,0.2192383,0.8701172,0.0009765625,0.0546875,-0.2602539
200406,1.9375,13.5625,1.3125,0.07519531,0.2231445,0.8701172,0.0009765625,0.05322266,-0.2602539
200407,-0.8125,18.875,-0.5,0.07128906,0.2231445,0.8588867,0,0.05322266,-0.2573242
200409,-1.0625,23.875,-2.25,0.03613281,0.1918945,0.9204102,0,0.05322266,-0.2573242
200410,-3.0625,25.375,-2.75,-0.04101563,0.1879883,0.9047852,0.0009765625,0.05712891,-0.2602539
200412,-4.875,24.9375,-3.125,-0.03759766,0.1918945,0.8740234,0.002441406,0.05615234,-0.2587891
200413,-6.1875,28.6875,-4.5,0.02832031,0.1958008,0.9282227,0.002441406,0.05615234,-0.2587891
200415,-7.0625,32.75,-6.125,0.01660156,0.199707,0.9086914,0.004882813,0.0546875,-0.2573242
200416,-8.375,35.6875,-7.375,-0.002441406,0.2192383,0.9321289,0.003417969,0.0546875,-0.2587891
200418,-8.875,37.875,-8.875,-0.03759766,0.1958008,0.9628906,0.003417969,0.0546875,-0.2587891
200419,-9.4375,37.9375,-9.125,-0.1152344,0.2114258,1.001465,0.006347656,0.05712891,-0.2602539
200421,-10.375,32.0625,-9,-0.2084961,0.2192383,1.085938,0.006347656,0.05712891,-0.2558594
200422,-12.1875,19.25,-8.5625,-0.3681641,0.296875,1.066895,0.006347656,0.05712891,-0.2558594
200424,-12.375,14.25,-7.5625,-0.1152344,0.1806641,0.9667969,0.007324219,0.05712891,-0.2587891
200425,-12.3125,18.0625,-7.6875,-0.04882813,0.1611328,1.020508,0.007324219,0.0546875,-0.2617188
200427,-11.625,16.625,-7.5,-0.1269531,0.1572266,0.9858398,0.007324219,0.0546875,-0.2617188
200428,-10.3125,15.5,-6.9375,-0.1152344,0.1494141,1.005371,0.006347656,0.05859375,-0.2558594
200430,-9.5625,15.0625,-6.3125,-0.1308594,0.1611328,1.024414,0.006347656,0.05859375,-0.2573242
200431,-8.625,13.375,-4.875,-0.1230469,0.1376953,0.9897461,0.006347656,0.05859375,-0.2573242
200433,-7.625,14.4375,-4.1875,-0.06445313,0.1494141,0.9780273,0.006347656,0.05712891,-0.2558594
200434,-7.375,16.3125,-3.75,-0.06054688,0.1689453,0.9897461,0.008789063,0.06005859,-0.2587891
200436,-6.875,17.25,-3.4375,-0.07617188,0.1494141,0.9858398,0.008789063,0.06005859,-0.2587891
200437,-6.375,18.125,-3.125,-0.09570313,0.1416016,1.001465,0.008789063,0.06152344,-0.2587891
200439,-5.375,15.5,-2.4375,-0.1621094,0.1108398,0.9819336,0.01025391,0.05859375,-0.2587891
200440,-4.125,12.375,-1.875,-0.1542969,0.07568359,1.005371,0.01025391,0.05859375,-0.2587891
200442,-3,11.8125,-0.625,-0.1074219,0.1259766,0.9975586,0.01025391,0.05712891,-0.2558594
200443,-3.0625,12.5,0.1875,-0.08789063,0.2192383,0.9667969,0.008789063,0.06005859,-0.2558594
200445,-2.875,13.0625,0.9375,-0.1308594,0.2075195,0.9707031,0.008789063,0.06005859,-0.2558594
200446,0.3125,9.875,2.5625,-0.07617188,0.01367188,1.008789,0.01123047,0.06005859,-0.2617188
200448,4.375,16,4.625,-0.08398438,0.06005859,1.024414,0.01123047,0.05859375,-0.2602539
200449,3.75,10.8125,5.375,-0.2006836,0.2387695,0.9667969,0.01123047,0.05859375,-0.2602539
200451,3.0625,9.875,4.8125,-0.1152344,0.2114258,1.020508,0.01025391,0.06005859,-0.2573242
200452,4.75,12.875,4.8125,-0.06835938,0.1259766,1.012695,0.01123047,0.06005859,-0.2587891
200454,5.6875,14.75,5.125,-0.08398438,0.1918945,1.016602,0.01123047,0.06005859,-0.2587891
200455,5.9375,16.1875,4.75,-0.09179688,0.1879883,1.012695,0.01269531,0.06005859,-0.2587891
200457,5.9375,17.75,4.25,-0.09960938,0.2075195,1.016602,0.01513672,0.05712891,-0.2602539
200458,6.9375,18.3125,4.25,-0.1035156,0.1689453,1.02832,0.01513672,0.05712891,-0.2602539
200460,8.125,19.4375,4.875,-0.1699219,0.1069336,1.055176,0.01416016,0.05859375,-0.2573242
200461,8.25,16.625,5.4375,-0.1894531,0.199707,1.008789,0.01513672,0.05859375,-0.2587891
200463,10.0625,16.1875,5.9375,-0.1660156,0.1142578,1.059082,0.01513672,0.05859375,-0.2587891
200464,12.9375,15.75,7.875,-0.1855469,0.1142578,1.05127,0.01513672,0.05615234,-0.2573242
200466,15.5625,15.1875,10.125,-0.1699219,0.1142578,1.047363,0.01513672,0.05712891,-0.2587891
200467,19.1875,15.25,12,-0.1425781,0.08349609,1.047363,0.01513672,0.05712891,-0.2587891
200469,22.4375,16.3125,13.5625,-0.1425781,0.1069336,1.059082,0.01416016,0.05712891,-0.2602539
200470,25.375,19.1875,14.75,-0.1191406,0.08740234,1.101563,0.01660156,0.05615234,-0.2587891
200472,30.125,21.0625,15.25,-0.1542969,0.05615234,1.097656,0.01660156,0.05615234,-0.2587891
200473,35,23.5,17,-0.1503906,0.03662109,1.117188,0.01660156,0.05712891,-0.2573242
200475,39.6875,28.875,18.125,-0.07226563,0.02148438,1.097656,0.02197266,0.05322266,-0.2602539
200477,42,39.1875,17.375,0.07910156,0.07568359,1.101563,0.02197266,0.05322266,-0.2602539
200479,39.5625,56.25,15.875,0.2348633,0.2426758,1.047363,0.02050781,0.05224609,-0.2602539
200480,32.3125,78.125,11.6875,0.4448242,0.347168,1.001465,0.02294922,0.05224609,-0.2587891
200482,21.125,109.4375,5.1875,0.6669922,0.4599609,0.9819336,0.02294922,0.05224609,-0.2587891
200483,6.25,147.25,-3.0625,0.8266602,0.5957031,0.9511719,0.02587891,0.05322266,-0.2587891
200485,-2.75,191.0625,-9.875,0.7485352,0.378418,1.085938,0.03076172,0.05078125,-0.2587891
200486,-7.3125,221.75,-19.3125,0.5581055,0.4018555,1.043945,0.03076172,0.05078125,-0.2587891
200488,-1.6875,245.875,-36.75,0.5463867,0.2773438,1.178711,0.03710938,0.04931641,-0.2587891
200489,9.6875,282.4375,-49.5625,0.7446289,0.3510742,1.270996,0.04394531,0.05224609,-0.2548828
200491,31.25,355.1875,-65.5,1.437988,0.1494141,1.941895,0.04394531,0.05224609,-0.2548828
200492,87.6875,464.375,-79.9375,2.201172,-0.6337891,2.748047,0.05175781,0.05078125,-0.2573242
200494,134.8125,579.9375,-73.1875,1.644531,-0.4243164,2.975098,0.06445313,0.04931641,-0.2558594
200495,179.75,646.5625,-62.625,1.920898,-0.9716797,2.720703,0.06445313,0.04931641,-0.2558594
200497,245.6875,772.25,-62.8125,2.104004,-0.5136719,4.066406,0.08007813,0.04541016,-0.2490234
200498,313.25,873.5625,-83.25,1.609375,-0.8398438,3.765625,0.1010742,0.04150391,-0.2412109
200500,381.8125,929,-89.4375,2.021973,-0.2304688,4.205078,0.1010742,0.04150391,-0.2412109
200501,409.1875,993.5,-89.8125,3.205566,-0.3466797,5.188477,0.1230469,0.03076172,-0.2353516
200503,409.375,968.75,-99.25,4.334961,0.7705078,6.441406,0.1474609,0.02148438,-0.2202148
200504,383.5625,895.3125,-113.1875,5.21875,0.9643555,7.817871,0.1474609,0.02148438,-0.2202148
200506,322.4375,699.375,-125.8125,4.066406,1.418457,7.393555,0.1669922,0.01318359,-0.2050781
200507,207.625,362.5625,-79.6875,-2.615234,2.881348,7.224121,0.1826172,0.008300781,-0.1972656
200509,63.6875,7,-22.5,-2.73584,3.424805,6.823242,0.1826172,0.008300781,-0.1972656
200510,-77.6875,-212.875,6.375,0.34375,2.85791,5.126465,0.1865234,0.00390625,-0.1914063
200512,-137.75,-279.6875,17.0625,3.283691,1.239746,3.009766,0.1826172,0.008300781,-0.1943359
200513,-122.625,-217.3125,15.5625,5.05127,-0.07519531,1.714355,0.1826172,0.008300781,-0.1943359
200515,-96.6875,-103.5625,11.125,5.000977,-1.398438,0.831543,0.1772461,0.009277344,-0.2011719
200516,-63,-6.375,0,4.595703,-0.203125,0.5078125,0.1748047,0.01074219,-0.2011719
200518,-48.875,45.4375,-10.25,3.373047,-0.2304688,0.3383789,0.1748047,0.01074219,-0.2011719
200519,-33.25,58.4375,-15.0625,2.403809,-0.2148438,0.550293,0.1757813,0.01220703,-0.199707
200521,-18.5,37.5,-20.5625,1.753418,-0.1489258,0.8125,0.1757813,0.01757813,-0.199707
200522,-9,-0.5,-24.25,1.585938,-0.01708984,1.128418,0.1757813,0.01757813,-0.199707
200524,-9,-52.375,-24.625,1.437988,0.1181641,1.221191,0.1772461,0.01611328,-0.1982422
200525,-15.8125,-91.75,-21.3125,1.663574,0.2114258,1.40625,0.1748047,0.01318359,-0.2050781
200527,-25.875,-119.1875,-16.6875,1.98291,0.2192383,1.502441,0.1748047,0.01318359,-0.2050781
200528,-36.75,-132.8125,-13.4375,2.224609,0.1879883,1.506348,0.1733398,0.01611328,-0.2041016
200530,-47.875,-139.8125,-10.8125,2.302246,0.1455078,1.463867,0.1694336,0.02001953,-0.2050781
200531,-59.25,-146.375,-8.4375,2.208984,0.09912109,1.398438,0.1694336,0.02001953,-0.2050781
200533,-71.375,-155.125,-6.6875,2.025879,0.05224609,1.333008,0.168457,0.01855469,-0.2109375
200534,-82.3125,-166.8125,-6.1875,1.819336,-0.01318359,1.263672,0.1616211,0.02294922,-0.2080078
200536,-91.4375,-180.125,-7.75,1.659668,-0.08691406,1.186523,0.1616211,0.02294922,-0.2080078
200537,-97.75,-193,-11,1.5625,-0.168457,1.144043,0.1591797,0.02392578,-0.2124023
200539,-101.375,-202.6875,-16.25,1.507813,-0.2421875,1.13623,0.1538086,0.02392578,-0.2148438
200540,-102.3125,-210.5,-22.375,1.465332,-0.2768555,1.128418,0.1538086,0.02392578,-0.2148438
200542,-101.4375,-216.875,-29.875,1.39502,-0.2924805,1.13623,0.1489258,0.02783203,-0.2202148
200543,-99.4375,-223.1875,-38,1.301758,-0.2963867,1.151855,0.1420898,0.03320313,-0.2202148
200545,-96.25,-228.3125,-45.9375,1.223633,-0.2768555,1.20166,0.1420898,0.03320313,-0.2202148
200546,-91.5,-233.25,-53.0625,1.122559,-0.2612305,1.282715,0.137207,0.03466797,-0.2270508
200548,-86.9375,-238.9375,-59.5625,1.029297,-0.203125,1.379395,0.1318359,0.03857422,-0.2299805
200549,-83.5,-246.9375,-63.8125,0.8925781,-0.1293945,1.467773,0.1318359,0.03857422,-0.2299805
200551,-81.75,-256.5625,-66.25,0.7563477,-0.04394531,1.533203,0.1254883,0.03857422,-0.2314453
200552,-82,-268.8125,-67.125,0.6005859,0.04052734,1.571777,0.1176758,0.04248047,-0.2329102
200554,-83.5625,-283,-66.125,0.4448242,0.1220703,1.560547,0.1176758,0.04248047,-0.2329102
200555,-85.625,-296.1875,-63.875,0.3476563,0.1845703,1.552734,0.1113281,0.04541016,-0.2353516
200557,-87.8125,-307.875,-61.4375,0.2851563,0.2192383,1.564453,0.1020508,0.04785156,-0.2397461
200558,-89.875,-318.6875,-58.4375,0.2270508,0.2617188,1.548828,0.1020508,0.04785156,-0.2397461
200560,-90.6875,-327.1875,-55.375,0.1762695,0.2890625,1.506348,0.09423828,0.05322266,-0.2412109
200561,-90.875,-333.4375,-51.1875,0.1606445,0.3354492,1.490723,0.08789063,0.0546875,-0.2436523
200563,-90,-338.625,-46.5625,0.1176758,0.362793,1.494629,0.08789063,0.0546875,-0.2436523
200564,-88.125,-343.375,-41.625,0.09082031,0.3823242,1.518066,0.08007813,0.05859375,-0.246582
200566,-84.6875,-348.5,-37.1875,0.05566406,0.3862305,1.533203,0.06689453,0.0625,-0.2480469
200567,-79.75,-353.4375,-33.75,0.04785156,0.3823242,1.602539,0.06689453,0.0625,-0.2480469
200569,-73.5,-358.1875,-30.1875,0.05566406,0.3862305,1.679688,0.05664063,0.06689453,-0.2504883
200570,-66.375,-362.375,-26.5,0.04785156,0.4018555,1.749512,0.04785156,0.06689453,-0.253418
200572,-58.75,-367.6875,-22.4375,0.02050781,0.4443359,1.807129,0.04785156,0.06689453,-0.253418
200575,-50.875,-372.875,-17.75,0.004882813,0.4638672,1.849609,0.03710938,0.07177734,-0.2548828
200577,-43.125,-378.375,-13.0625,-0.04101563,0.5063477,1.86084,0.02587891,0.07324219,-0.2558594
200578,-35.8125,-383,-8.625,-0.06445313,0.5532227,1.841797,0.02587891,0.07324219,-0.2558594
200580,-28,-385,-2.875,-0.04492188,0.6191406,1.811035,0.01513672,0.07324219,-0.2548828
200581,-18.8125,-382.125,4.375,-0.02197266,0.6694336,1.853516,0.003417969,0.07324219,-0.2548828
200583,-8.75,-378.1875,12.3125,-0.09960938,0.6811523,1.845703,0.003417969,0.07324219,-0.2548828
200584,0.875,-377.25,20.1875,-0.2163086,0.6889648,1.826172,-0.004882813,0.07324219,-0.2573242
200586,11.375,-376.625,27.75,-0.2944336,0.7006836,1.841797,-0.01513672,0.07470703,-0.2548828
200587,22.6875,-375.9375,35.4375,-0.3759766,0.6967773,1.845703,-0.01513672,0.07470703,-0.2548828
200589,33.5,-374.5625,42.625,-0.3837891,0.7353516,1.86084,-0.02685547,0.07324219,-0.2548828
200590,42.5625,-370.625,49.8125,-0.3256836,0.8168945,1.915039,-0.03759766,0.07324219,-0.2519531
200592,49.5,-362,58,-0.2592773,0.8984375,2.007813,-0.03759766,0.07324219,-0.2519531
200593,53.5625,-349.75,68.0625,-0.1928711,1.030273,2.188965,-0.04785156,0.07177734,-0.2519531
200595,54.3125,-338.625,79.375,-0.2202148,1.169922,2.396973,-0.05566406,0.07080078,-0.2490234
200596,50.6875,-331.6875,92.625,-0.3139648,1.30957,2.574219,-0.05566406,0.07080078,-0.2490234
200598,45.0625,-327.9375,107.6875,-0.4462891,1.406738,2.790039,-0.06445313,0.07177734,-0.2480469
200599,39.6875,-329.375,122.8125,-0.6450195,1.418457,2.986816,-0.07128906,0.07080078,-0.246582
200601,37.375,-336,137.375,-0.8510742,1.321289,3.194824,-0.07128906,0.07080078,-0.246582
200602,41.8125,-344.75,149.375,-1.026367,1.104004,3.40332,-0.08251953,0.07080078,-0.2436523
200604,51.1875,-354.5625,157.8125,-1.221191,0.8671875,3.541992,-0.08935547,0.07080078,-0.2412109
200605,61,-362.625,163.75,-1.376953,0.7548828,3.592285,-0.08935547,0.07080078,-0.2412109
200607,66.0625,-368.25,166.625,-1.466309,0.7509766,3.545898,-0.09716797,0.06933594,-0.2382813
200608,64.4375,-368.4375,167.375,-1.583008,0.7705078,3.464844,-0.1049805,0.07177734,-0.2329102
200610,58.125,-364.5,167.5,-1.77002,0.7744141,3.303223,-0.1049805,0.07177734,-0.2329102
200611,49.375,-357.9375,166.3125,-1.980469,0.7666016,3.141113,-0.112793,0.07177734,-0.2299805
200613,38.375,-346.5,162.3125,-2.198242,0.7587891,2.952148,-0.1230469,0.07080078,-0.2246094
200614,29.75,-334.0625,156.375,-2.455566,0.7197266,2.797852,-0.1230469,0.07080078,-0.2246094
200616,22.4375,-322.5625,149,-2.731934,0.6499023,2.578125,-0.1308594,0.07470703,-0.2192383
200617,16.125,-311,138.8125,-2.938477,0.6191406,2.335449,-0.1357422,0.07470703,-0.2192383
200619,9.5,-298.125,125.3125,-3.090332,0.5878906,2.126953,-0.1357422,0.07470703,-0.2192383
200620,5.4375,-285.5625,109.5625,-3.210938,0.5493164,1.930664,-0.1425781,0.07617188,-0.2124023
200622,4.5,-269.875,91.875,-3.272949,0.5063477,1.772461,-0.1464844,0.07617188,-0.2080078
200623,7.5,-251.5,71.75,-3.366699,0.4985352,1.602539,-0.1464844,0.07617188,-0.2080078
200625,13.5,-233.5625,53.3125,-3.456055,0.4985352,1.51416,-0.1513672,0.08007813,-0.2050781
200626,23.375,-215.4375,34.8125,-3.623535,0.4946289,1.394531,-0.1591797,0.08007813,-0.2011719
200628,37.3125,-200.6875,17.3125,-3.849609,0.3666992,1.414063,-0.1591797,0.08007813,-0.2011719
200629,59.25,-191.375,-4.125,-4.145508,0.1142578,1.599121,-0.1630859,0.08007813,-0.1972656
200631,87.4375,-187.125,-26,-4.492188,-0.08300781,1.625977,-0.1655273,0.08007813,-0.1943359
200632,117.375,-178,-43.625,-4.733398,-0.05566406,1.487305,-0.1655273,0.08007813,-0.1943359
200634,136.8125,-161.75,-54.25,-4.95166,0.2231445,1.213379,-0.1694336,0.07617188,-0.1914063
200635,138.0625,-138.8125,-56.0625,-5.274414,0.5141602,0.7470703,-0.1733398,0.06933594,-0.1904297
200637,123.5625,-113.625,-51.0625,-5.578125,0.7275391,0.1992188,-0.1733398,0.06933594,-0.1904297
200638,98.4375,-84.9375,-39.5,-5.710938,0.6850586,-0.309082,-0.1772461,0.06787109,-0.1904297
200640,64.5625,-53.8125,-31.625,-5.804199,0.8168945,-0.6943359,-0.1801758,0.06542969,-0.1889648
200641,26.75,-23.125,-19.5,-5.683594,0.6538086,-0.9067383,-0.1801758,0.06542969,-0.1889648
200643,-8.5625,8.875,-12.25,-5.48877,0.5532227,-0.9453125,-0.1811523,0.06152344,-0.1875
200644,-38,44.625,-9.8125,-5.068359,0.3393555,-0.8256836,-0.1811523,0.06396484,-0.1875
200646,-58.25,87.5,-12.8125,-4.60498,0.1879883,-0.4633789,-0.1811523,0.06396484,-0.1875
200647,-71.0625,126.5,-19.625,-4.320801,0.1142578,-0.0625,-0.1801758,0.0625,-0.1904297
200649,-79.25,160.25,-26.8125,-4.118164,0.1069336,0.4189453,-0.1772461,0.06542969,-0.1904297
200650,-84.75,186.625,-33.0625,-3.865234,0.2114258,1.113281,-0.1772461,0.06542969,-0.1904297
200652,-81.375,132.0625,22.3125,-3.315918,1.387207,1.352051,-0.1733398,0.06689453,-0.1928711
200653,-228.125,108.75,52.5,-2.529297,2.757324,0.6352539,-0.1708984,0.07080078,-0.1928711
200655,-275.75,-21.0625,140.3125,0.2036133,0.4018555,1.444824,-0.1708984,0.07080078,-0.1928711
200656,-285.125,-42.4375,156.75,2.04541,-1.716797,-2.360352,-0.1694336,0.07861328,-0.1914063
200658,-28.8125,4.3125,122.9375,6.511719,-5.845703,-5.54834,-0.1694336,0.08251953,-0.1904297
200659,221.75,451.3125,35.8125,7.94873,-5.364746,-2.221191,-0.1694336,0.08251953,-0.1904297
200661,173.9375,1146.188,-100.3125,7.94873,-0.2421875,-0.1240234,-0.1645508,0.08398438,-0.1928711
200662,107.375,1230.438,-134.8125,-1.606445,0.7041016,1.251953,-0.1396484,0.07617188,-0.2133789
200664,79.25,935.4375,-123.125,-7.996582,-0.2578125,4.552246,-0.1396484,0.07617188,-0.2133789
200665,99.9375,505.4375,-53.25,-7.996582,0.5180664,5.346191,-0.1152344,0.07177734,-0.2285156
200667,66.3125,297.5625,-1.25,-6.310547,0.8789063,5.5625,-0.1020508,0.06933594,-0.2382813
200668,47.5625,219.3125,-4.8125,-2.716309,-0.4902344,4.424805,-0.1020508,0.06933594,-0.2382813
200670,75.875,207.1875,-25.5625,-0.3139648,-2.050293,3.730957,-0.09570313,0.07080078,-0.2382813
200672,97.125,222.8125,-62.25,1.067871,-0.6650391,3.349121,-0.09033203,0.06542969,-0.2412109
200674,103.1875,255.6875,-87.9375,1.59375,-0.6416016,3.256836,-0.09033203,0.06542969,-0.2412109
200675,115.1875,272.9375,-98.75,0.6982422,-0.6650391,2.462402,-0.08251953,0.06396484,-0.2436523
200677,131.875,265.5625,-93.0625,-0.01416016,-0.3388672,1.837891,-0.07763672,0.05712891,-0.2480469
200678,130.625,243.9375,-90.125,-0.6411133,0.28125,1.055176,-0.07763672,0.05712891,-0.2480469
200680,115.125,220.5625,-88.5625,-0.831543,0.7817383,0.5463867,-0.06982422,0.05224609,-0.2490234
200681,171.6875,173.5625,17.6875,0.7719727,0.04052734,1.097656,-0.06201172,0.04931641,-0.2548828
200683,159.25,305.75,79.3125,3.680664,4.969238,3.507324,-0.06201172,0.04931641,-0.2548828
200684,20.3125,436.8125,-16.75,3.088867,4.82959,3.730957,-0.05810547,0.046875,-0.253418
200686,-44.8125,445.625,-48.6875,-1.575684,1.775391,2.470215,-0.04492188,0.04541016,-0.2587891
200687,-52.6875,295.5,-23.1875,-4.18457,0.1728516,1.221191,-0.04492188,0.04541016,-0.2587891
200689,-49.5625,154.875,0.75,-2.790527,-0.4243164,2.073242,-0.03613281,0.04394531,-0.2602539
200690,-24.8125,110.8125,-4.75,-0.527832,-0.5371094,2.319824,-0.03222656,0.046875,-0.2602539
200692,2.25,120.5,-11.5,0.3945313,-0.6416016,1.251953,-0.03222656,0.046875,-0.2602539
200693,10.1875,140.625,-16.5,0.6005859,-0.2460938,0.4848633,-0.02685547,0.046875,-0.2602539
200695,-0.9375,171.125,-24,0.7680664,0.5644531,0.480957,-0.02587891,0.046875,-0.2587891
200696,-27.5,197.75,-39.4375,0.487793,1.212891,0.9321289,-0.02587891,0.046875,-0.2587891
200698,-50.5,197,-50.9375,-0.2944336,0.90625,1.229004,-0.01660156,0.04541016,-0.2617188
200699,-51.5625,164.5,-49.875,-1.049805,0.199707,1.329102,-0.01513672,0.04931641,-0.2587891
200701,-44.9375,124,-41.6875,-1.092773,-0.08691406,1.429199,-0.01513672,0.04931641,-0.2587891
200702,-38.625,98.9375,-35.0625,-0.7226563,0.06787109,1.452637,-0.01123047,0.04931641,-0.2587891
200704,-37.8125,84,-33.0625,-0.4541016,0.3046875,1.229004,-0.007324219,0.04785156,-0.2641602
200705,-40.125,74.1875,-33.25,-0.2358398,0.3320313,1.101563,-0.007324219,0.04785156,-0.2641602
200707,-45,72.3125,-32.9375,-0.1621094,0.3666992,1.001465,-0.004882813,0.05078125,-0.2602539
200708,-49.1875,69.5625,-32.8125,-0.1894531,0.2695313,1.055176,-0.00390625,0.05224609,-0.2602539
200710,-50.0625,64.8125,-31.3125,-0.2749023,0.230957,1.155762,-0.00390625,0.05224609,-0.2602539
200711,-48.5625,53.8125,-27.9375,-0.4150391,0.2114258,1.248047,-0.002441406,0.0546875,-0.2602539
200713,-45.875,40.1875,-23.6875,-0.4697266,0.1767578,1.286621,-0.0009765625,0.05615234,-0.2617188
200714,-41.6875,27.4375,-19.3125,-0.4150391,0.1069336,1.248047,-0.0009765625,0.05615234,-0.2617188
200716,-35.875,19.5,-16.4375,-0.2866211,0.04833984,1.205566,-0.0009765625,0.05712891,-0.2602539
200717,-31.125,15.6875,-13.9375,-0.2006836,0.06005859,1.155762,0.0009765625,0.05615234,-0.2587891
200719,-27.375,12.1875,-11.8125,-0.2124023,0.09912109,1.140137,0.0009765625,0.05615234,-0.2587891
200720,-24,7.125,-9.8125,-0.2163086,0.09912109,1.140137,0.0009765625,0.05712891,-0.2573242
200722,-19.5625,2.1875,-8.0625,-0.2045898,0.08740234,1.144043,0,0.06005859,-0.2602539
200723,-16.4375,-1.25,-5.4375,-0.1928711,0.05615234,1.128418,0,0.06005859,-0.2602539
200725,-11.75,-5.125,-4.4375,-0.1621094,0.05224609,1.124512,0,0.06005859,-0.2573242
200726,-8.125,-7.875,-2.625,-0.1582031,0.07177734,1.085938,0,0.05712891,-0.2587891
200728,-5.5,-10.875,-1.3125,-0.1425781,0.08740234,1.055176,0,0.05712891,-0.2587891
200729,-3.5625,-11.125,-0.375,-0.09179688,0.1030273,1.032227,0,0.06005859,-0.2573242
200731,-1.8125,-11.375,0.1875,-0.07617188,0.1108398,1.02832,0,0.06152344,-0.2587891
200732,-0.5625,-11.1875,0.5,-0.07226563,0.1181641,1.016602,0,0.06152344,-0.2587891
200734,0.25,-10.5,1,-0.05664063,0.1298828,0.9741211,-0.0009765625,0.06005859,-0.2587891
200735,-0.125,-9.4375,1.3125,-0.03759766,0.1572266,0.9472656,-0.0009765625,0.05859375,-0.2602539
200737,-0.25,-7.75,0.9375,-0.01806641,0.1611328,0.9589844,-0.0009765625,0.05859375,-0.2602539
200738,-1.4375,-5.75,0.375,-0.01025391,0.1918945,0.9472656,-0.0009765625,0.06005859,-0.2617188
200740,-2.3125,-4.0625,-0.0625,-0.02587891,0.1958008,0.9511719,-0.0009765625,0.06005859,-0.2587891
200741,-3.8125,-2.625,-0.75,-0.03369141,0.1958008,0.9628906,-0.0009765625,0.06005859,-0.2587891
200743,-5.0625,-1.125,-1.4375,-0.03759766,0.1958008,0.9780273,-0.002441406,0.06005859,-0.2587891
200744,-6.1875,-0.9375,-2,-0.06054688,0.199707,0.9858398,-0.0009765625,0.06005859,-0.2587891
200746,-7.6875,-1,-2.625,-0.07226563,0.2075195,0.9780273,-0.0009765625,0.06005859,-0.2587891
200747,-8.8125,-0.75,-3.375,-0.05273438,0.2036133,0.9667969,-0.002441406,0.06152344,-0.2587891
200749,-10.5,0.375,-4.3125,-0.04101563,0.1958008,0.9589844,-0.002441406,0.06152344,-0.2573242
200750,-11.6875,1.625,-4.6875,-0.03369141,0.1845703,0.9433594,-0.002441406,0.06152344,-0.2573242
200752,-13.125,3.3125,-5.3125,-0.02197266,0.1918945,0.9394531,-0.0009765625,0.06005859,-0.2587891
200753,-15.375,6.4375,-6.6875,0.01660156,0.199707,0.9243164,-0.0009765625,0.0625,-0.2573242
200755,-17.0625,10.5,-7.75,0.03613281,0.1845703,0.9008789,-0.0009765625,0.0625,-0.2573242
200756,-19.0625,15,-8.875,0.05175781,0.1767578,0.8818359,0,0.0625,-0.2573242
200758,-19.5,18.9375,-9.625,0.02832031,0.1455078,0.9125977,-0.0009765625,0.0625,-0.2573242
200759,-19.5,21.75,-10.0625,0.01269531,0.1298828,0.9086914,-0.0009765625,0.0625,-0.2573242
200761,-18.6875,23.6875,-10.375,-0.01806641,0.1069336,0.9321289,0.0009765625,0.06152344,-0.2602539
200762,-17.5,25.3125,-9.9375,-0.03759766,0.08349609,0.9628906,0,0.06396484,-0.2558594
200764,-15.125,25.5,-9.1875,-0.06445313,0.06396484,0.9628906,0,0.06396484,-0.2558594
200765,-12.875,25.375,-8.125,-0.08007813,0.05224609,0.9741211,0,0.06396484,-0.2573242
200767,-9.8125,25.375,-7.0625,-0.08789063,0.04052734,0.9897461,0.002441406,0.06542969,-0.2587891
200770,-6.5,23.875,-5.5625,-0.1191406,0.01757813,1.001465,0.002441406,0.06542969,-0.2587891
200772,-2.9375,22.1875,-3.9375,-0.1113281,0.01757813,0.9858398,0.002441406,0.06689453,-0.2573242
200773,0.0625,21.375,-2.375,-0.09570313,0.02539063,0.9858398,0.003417969,0.06396484,-0.2573242
200775,3.3125,21.125,-1.25,-0.09179688,0.04052734,0.9819336,0.003417969,0.06396484,-0.2573242
200776,6.3125,20.125,0,-0.1152344,0.03320313,0.9897461,0.006347656,0.06689453,-0.2573242
200778,9.375,18.4375,1.1875,-0.1191406,0.02929688,0.9975586,0.004882813,0.06396484,-0.2587891
200779,11.75,16.75,2.75,-0.1269531,0.04443359,1.005371,0.004882813,0.06396484,-0.2587891
200781,13.6875,14.75,3.8125,-0.1230469,0.07568359,0.9975586,0.006347656,0.06152344,-0.2602539
200782,15.1875,13.625,4.5625,-0.09960938,0.08349609,0.9741211,0.004882813,0.06005859,-0.2573242
200784,16.4375,13.4375,4.9375,-0.08789063,0.08740234,0.9819336,0.004882813,0.06005859,-0.2573242
200785,16.875,13.5,4.875,-0.09179688,0.1220703,0.9741211,0.003417969,0.05859375,-0.2602539
200787,16.3125,13.3125,4.4375,-0.08789063,0.1572266,0.9741211,0.004882813,0.0625,-0.2587891
200788,15.5,13.8125,3.6875,-0.06835938,0.1533203,0.9433594,0.004882813,0.0625,-0.2587891
200790,13.875,16,2.9375,-0.01806641,0.1494141,0.9355469,0.004882813,0.06005859,-0.2602539
200791,13.1875,19.4375,2.0625,-0.01806641,0.1728516,0.9472656,0.006347656,0.05859375,-0.2602539
200793,11.75,21.5625,0.9375,-0.04882813,0.1806641,0.9472656,0.006347656,0.05859375,-0.2602539
200794,11.0625,22,0.3125,-0.08789063,0.1958008,0.9936523,0.006347656,0.06152344,-0.2587891
200796,10.5,20.8125,0.125,-0.1230469,0.1806641,0.9780273,0.006347656,0.0625,-0.2587891
200797,11.4375,19.125,0.3125,-0.1308594,0.1533203,0.9819336,0.006347656,0.0625,-0.2587891
200799,12.0625,18.375,0.75,-0.1113281,0.1337891,0.9741211,0.007324219,0.05859375,-0.2587891
200800,13.125,18.5,1.25,-0.09960938,0.1142578,0.9897461,0.007324219,0.06005859,-0.2587891
200802,14,17.625,1.75,-0.1308594,0.1259766,0.9897461,0.007324219,0.06005859,-0.2587891
200803,14.3125,16.3125,2.125,-0.1347656,0.1611328,0.9936523,0.008789063,0.06005859,-0.2587891
200805,13.8125,15.1875,2.125,-0.1191406,0.1879883,1.001465,0.008789063,0.05859375,-0.2602539
200806,12.5,15.25,1.625,-0.1113281,0.2270508,0.9819336,0.008789063,0.05859375,-0.2602539
200808,7.0625,13.625,1.375,-0.1855469,0.3007813,1.074707,0.01025391,0.05712891,-0.2587891
200809,7.0625,10.6875,1.1875,-0.1308594,0.2114258,0.9394531,0.01123047,0.05859375,-0.2573242
200811,6.5625,12.3125,0.625,-0.08398438,0.199707,1.016602,0.01123047,0.05859375,-0.2573242
200812,5.1875,12.4375,0.1875,-0.1152344,0.230957,0.9667969,0.01123047,0.05712891,-0.2573242
200814,1.375,10.4375,-0.3125,-0.1660156,0.2929688,1.036133,0.01269531,0.05859375,-0.2587891
200815,-1.1875,9,-0.8125,-0.09570313,0.215332,0.9667969,0.01269531,0.05859375,-0.2587891
200817,-2.875,11.0625,-1.875,-0.08007813,0.2192383,0.9897461,0.01123047,0.05859375,-0.2626953
200818,-3.6875,11.5,-2.75,-0.07226563,0.1918945,0.9780273,0.01269531,0.05712891,-0.2617188
200820,-5.0625,12.5625,-3.6875,-0.06445313,0.2036133,0.9667969,0.01269531,0.05712891,-0.2617188
200821,-5.5,14.9375,-5.0625,-0.04492188,0.230957,0.9819336,0.01025391,0.05859375,-0.2587891
200823,-6.875,16.5,-5.1875,-0.06835938,0.2348633,0.9511719,0.01269531,0.06005859,-0.2587891
200824,-6.4375,17.5,-4.1875,-0.1152344,0.1416016,0.9936523,0.01269531,0.06005859,-0.2587891
200826,-4.5,16.5625,-2.6875,-0.1347656,0.1069336,0.9936523,0.01416016,0.05859375,-0.2602539
200827,-3.5625,14.375,-1.6875,-0.1699219,0.1689453,0.9858398,0.01269531,0.05859375,-0.2587891
200829,-2.4375,13.6875,-0.5625,-0.1347656,0.1337891,0.9975586,0.01269531,0.05859375,-0.2587891
200830,-1.625,12.9375,0.8125,-0.1660156,0.1259766,0.9858398,0.01123047,0.06005859,-0.2573242
200832,-1.625,4.8125,2,-0.2905273,0.2583008,0.9550781,0.01269531,0.05859375,-0.2573242
200833,0.375,11,3.125,0.04394531,0.02929688,1.047363,0.01269531,0.05859375,-0.2573242
200835,1.8125,11.75,4.375,-0.1967773,0.1650391,0.9897461,0.01416016,0.06152344,-0.2573242
200836,0.625,7.0625,3.75,-0.1967773,0.2426758,0.9975586,0.01513672,0.06005859,-0.2587891
200838,0.875,9.25,3.625,-0.09960938,0.1650391,1.032227,0.01513672,0.06005859,-0.2587891
200839,2.1875,10.4375,4.1875,-0.1347656,0.1494141,1.020508,0.01513672,0.05859375,-0.2573242
200841,2.875,10.0625,4.25,-0.1503906,0.1879883,1.012695,0.01660156,0.05859375,-0.2573242
200842,3.1875,10.875,4,-0.1503906,0.1611328,1.032227,0.01660156,0.05859375,-0.2573242
200844,4.25,10.875,3.9375,-0.1660156,0.1845703,1.024414,0.01513672,0.05712891,-0.2617188
200845,5,11.1875,3.8125,-0.1542969,0.1611328,1.024414,0.01660156,0.05615234,-0.2587891
200847,6.3125,11.75,4.125,-0.1660156,0.1611328,1.047363,0.01660156,0.05615234,-0.2587891
200848,8.1875,12.4375,4.125,-0.1503906,0.1337891,1.036133,0.01806641,0.06005859,-0.2587891
200850,11.25,13.4375,5.375,-0.1855469,0.1181641,1.078613,0.01660156,0.06152344,-0.2587891
200851,14.3125,13.125,7,-0.1928711,0.1376953,1.055176,0.01660156,0.06152344,-0.2587891
200853,18.1875,14.375,9.5,-0.1464844,0.1142578,1.08252,0.01660156,0.05712891,-0.2587891
200854,23.1875,18,11.375,-0.1425781,0.02929688,1.132324,0.01660156,0.05859375,-0.2602539
200856,28.6875,21.3125,13.1875,-0.1621094,0.07958984,1.151855,0.01660156,0.05859375,-0.2602539
200857,33.9375,25.125,12.9375,-0.1230469,0.04833984,1.166992,0.01904297,0.05859375,-0.2573242
200859,43.125,32,12,-0.01025391,-0.02880859,1.213379,0.01904297,0.05615234,-0.2587891
200860,45.9375,44.5625,10.625,0.121582,0.1259766,1.074707,0.01904297,0.05615234,-0.2587891
200862,39.875,62.25,6,0.421875,0.4868164,1.040039,0.02294922,0.05615234,-0.2602539
200863,26.5625,95.9375,-0.5625,0.6669922,0.5102539,1.02832,0.02294922,0.05615234,-0.2573242
200865,13.4375,141.0625,-5.125,0.9824219,0.4018555,1.036133,0.02294922,0.05615234,-0.2573242
200867,2.5,198.0625,-12.6875,1.122559,0.347168,1.174805,0.02832031,0.0546875,-0.2617188
200869,-1.8125,250.125,-17.625,0.7875977,0.3432617,1.236328,0.03222656,0.04931641,-0.2573242
200870,3.9375,278.25,-8.75,0.3984375,0.1958008,1.221191,0.03222656,0.04931641,-0.2573242
200872,28.3125,315.8125,6.375,0.8032227,-0.2382813,1.552734,0.04101563,0.05322266,-0.2548828
200873,60.625,420.625,7.6875,2.345215,-0.4824219,2.335449,0.05175781,0.05224609,-0.2558594
200875,67,580.75,22.8125,3.32666,-0.7114258,2.855957,0.05175781,0.05224609,-0.2558594
200876,77.25,662.4375,64.9375,3.20166,-0.4165039,3.457031,0.06591797,0.05078125,-0.253418
200878,37.0625,851.1875,83.1875,4.385742,0.5800781,5.227051,0.08544922,0.046875,-0.2504883
200879,90.5625,963.5,59.9375,1.254883,-1.165527,3.850586,0.08544922,0.046875,-0.2504883
200881,108.5,932.75,55.875,1.589844,-0.9404297,4.775879,0.1083984,0.04785156,-0.2436523
200882,110,909.75,-24.1875,5.59668,-1.018066,7.413086,0.1308594,0.04150391,-0.2299805
200884,106,870.75,-139.25,5.935547,-2.5625,7.817871,0.1308594,0.04150391,-0.2299805
200885,104.5,689.0625,-249.1875,3.131836,-3.544434,7.817871,0.1538086,0.03759766,-0.2163086
200887,98.875,336.0625,-221.125,-2.802246,-1.503418,6.460449,0.1669922,0.04003906,-0.2080078
200888,25.875,41.25,-217.6875,-1.953125,0.5219727,6.047852,0.1669922,0.04003906,-0.2080078
200890,-62.3125,-109.3125,-229.25,1.290039,0.8710938,4.675781,0.1694336,0.04150391,-0.2041016
200891,-115.25,-132.3125,-241.9375,3.528809,0.3164063,2.643555,0.1655273,0.046875,-0.2050781
200893,-127.25,-73.0625,-235.5,4.436035,-0.03662109,1.467773,0.1655273,0.046875,-0.2050781
200894,-134.625,11.625,-223.0625,4.370117,0.2504883,0.9897461,0.1616211,0.0546875,-0.206543
200896,-146.75,73.125,-212.9375,3.552246,0.5375977,0.7661133,0.1591797,0.06152344,-0.206543
200897,-155.6875,99.25,-199.125,2.921387,0.6420898,0.8701172,0.1591797,0.06152344,-0.206543
200899,-161.25,90.6875,-180.875,2.201172,0.7817383,1.128418,0.1616211,0.06787109,-0.2011719
200900,-166.3125,59.8125,-160.5,1.769043,0.9526367,1.382813,0.1616211,0.07470703,-0.199707
200902,-172.0625,19.1875,-138.625,1.585938,1.096191,1.575684,0.1616211,0.07470703,-0.199707
200903,-174.9375,-19.1875,-120.6875,1.640625,1.100098,1.648926,0.1606445,0.08398438,-0.1928711
200905,-171,-50.4375,-105.6875,1.850586,0.972168,1.625977,0.1577148,0.08789063,-0.1958008
200906,-159.75,-72.375,-93.1875,2.072754,0.859375,1.502441,0.1577148,0.08789063,-0.1958008
200908,-142.875,-87,-83.75,2.146484,0.7895508,1.344238,0.1577148,0.09179688,-0.1928711
200909,-123.9375,-97.75,-76.5,2.104004,0.7587891,1.178711,0.152832,0.09716797,-0.1928711
200911,-103.25,-107.4375,-69.6875,1.948242,0.7392578,1.032227,0.152832,0.09716797,-0.1928711
200912,-81.5625,-117.9375,-62.625,1.769043,0.7353516,0.9008789,0.1499023,0.1025391,-0.1943359
200914,-61.9375,-128.9375,-55.125,1.609375,0.7587891,0.8237305,0.1474609,0.1040039,-0.1958008
200915,-44.1875,-139.9375,-47,1.503906,0.8012695,0.7661133,0.1474609,0.1040039,-0.1958008
200917,-29.75,-150.6875,-38.0625,1.383301,0.8364258,0.7504883,0.1450195,0.1064453,-0.1982422
200918,-17.375,-161.5,-27.8125,1.301758,0.8515625,0.7739258,0.1396484,0.109375,-0.1982422
200920,-7.875,-170.5625,-16.875,1.254883,0.8632813,0.8662109,0.1396484,0.109375,-0.1982422
200921,-0.375,-179.375,-5.9375,1.21582,0.8325195,0.9707031,0.1357422,0.1064453,-0.2041016
200923,5.0625,-189.4375,4.25,1.161621,0.8012695,1.109375,0.1318359,0.1079102,-0.2050781
200924,9.8125,-200.1875,13.5,1.075684,0.7275391,1.232422,0.1318359,0.1079102,-0.2050781
200926,14.1875,-213,21.875,0.9824219,0.6577148,1.329102,0.1269531,0.1079102,-0.2080078
200927,18.625,-227.25,29.3125,0.8774414,0.5644531,1.40625,0.121582,0.1064453,-0.2094727
200929,23.875,-243,35.625,0.7875977,0.4638672,1.425293,0.121582,0.1064453,-0.2094727
200930,29.625,-258,40.5,0.7099609,0.3706055,1.429199,0.1191406,0.1064453,-0.2148438
200932,35.4375,-271.875,44.375,0.6669922,0.3164063,1.41748,0.1113281,0.1054688,-0.2148438
200933,40.875,-284.5,47.5,0.6162109,0.2504883,1.414063,0.1113281,0.1054688,-0.2148438
200935,44.5625,-295.125,50.1875,0.5698242,0.2075195,1.398438,0.1035156,0.1054688,-0.2177734
200936,46.5,-304.1875,52.5625,0.5151367,0.1767578,1.355957,0.09814453,0.1040039,-0.2231445
200938,46.375,-311.4375,54.25,0.472168,0.1416016,1.336914,0.09814453,0.1040039,-0.2231445
200939,45.625,-317.875,56,0.4331055,0.1108398,1.30957,0.09423828,0.1010742,-0.2270508
200941,43.25,-322.6875,57.625,0.4101563,0.08740234,1.317383,0.08398438,0.09863281,-0.2270508
200942,39.75,-325.6875,59,0.4101563,0.07568359,1.371582,0.08398438,0.09863281,-0.2270508
200944,35.375,-327.6875,60.75,0.3359375,0.06005859,1.425293,0.07617188,0.09716797,-0.2314453
200945,29.5625,-332.25,62.8125,0.2695313,0.04833984,1.494629,0.07226563,0.09472656,-0.2353516
200947,23.3125,-338.3125,64.3125,0.215332,0.03320313,1.571777,0.07226563,0.09472656,-0.2353516
200948,17.3125,-344.625,64.875,0.1958008,0.005859375,1.610352,0.06445313,0.09619141,-0.2397461
200950,12.0625,-350.75,64.375,0.1801758,-0.05566406,1.652832,0.05566406,0.09619141,-0.2412109
200951,9.5,-356.1875,63.0625,0.1489258,-0.1064453,1.683594,0.05566406,0.09619141,-0.2412109
200953,8.4375,-360.8125,60.375,0.1293945,-0.1489258,1.703125,0.04785156,0.09619141,-0.2412109
200954,8.75,-364.125,57.25,0.1064453,-0.1762695,1.722168,0.03857422,0.09619141,-0.246582
200956,10.1875,-365.8125,53.5,0.06347656,-0.1914063,1.737793,0.03857422,0.09619141,-0.246582
200957,12.0625,-367.0625,49.8125,0.02441406,-0.1801758,1.756836,0.02685547,0.09619141,-0.2451172
200959,14.25,-367.5,46.875,-0.03759766,-0.1567383,1.807129,0.01904297,0.09472656,-0.246582
200960,16.5,-367.875,44.25,-0.08007813,-0.121582,1.849609,0.01904297,0.09472656,-0.246582
200962,17.75,-368.1875,42.3125,-0.1191406,-0.07910156,1.899414,0.007324219,0.09472656,-0.2490234
200965,19.0625,-368.8125,41.125,-0.1738281,-0.04003906,1.95752,0,0.09472656,-0.2490234
200967,19.5,-370.625,41.25,-0.1928711,-0.02099609,2.003906,0,0.09472656,-0.2490234
200968,20.9375,-372.625,41.6875,-0.1928711,-0.02880859,2.073242,-0.01123047,0.09326172,-0.2480469
200970,21.875,-373.875,41.8125,-0.1928711,-0.02099609,2.138672,-0.01904297,0.09179688,-0.2451172
200971,22.0625,-374.9375,41.9375,-0.1816406,-0.009277344,2.177246,-0.01904297,0.09179688,-0.2451172
200973,21.5625,-375.3125,41.9375,-0.1542969,0.01757813,2.227539,-0.02832031,0.09472656,-0.2436523
200974,20.625,-373.375,42.375,-0.1074219,0.06787109,2.292969,-0.03759766,0.09326172,-0.2451172
200976,19.75,-370.4375,42.6875,-0.08007813,0.1298828,2.374023,-0.03759766,0.09326172,-0.2451172
200977,19.75,-365.6875,42.9375,-0.08789063,0.1845703,2.466309,-0.05029297,0.09179688,-0.2412109
200979,22.375,-361.625,43.9375,-0.1308594,0.2075195,2.562988,-0.06054688,0.08935547,-0.2397461
200980,27.5,-358.3125,45.1875,-0.2280273,0.2543945,2.674805,-0.06054688,0.08935547,-0.2397461
200982,33.1875,-357.125,46.125,-0.3525391,0.2851563,2.751465,-0.06738281,0.09179688,-0.2397461
200983,40.1875,-356.4375,46.0625,-0.4541016,0.2929688,2.817383,-0.07617188,0.08935547,-0.2368164
200985,48.75,-355.4375,45.4375,-0.5708008,0.3125,2.852051,-0.07617188,0.08935547,-0.2368164
200986,58.625,-354.125,44.25,-0.6992188,0.3125,2.897949,-0.08544922,0.09082031,-0.2329102
200988,67.6875,-350.75,42.5625,-0.831543,0.3432617,2.929199,-0.09423828,0.08789063,-0.2270508
200989,73.5,-347.0625,40.625,-0.9794922,0.4018555,2.948242,-0.09423828,0.08789063,-0.2270508
200991,73.25,-341.25,38.4375,-1.119629,0.5063477,3.033203,-0.1020508,0.08642578,-0.2260742
200992,67,-331.875,36.4375,-1.268066,0.6538086,3.141113,-0.1113281,0.08544922,-0.2246094
200994,53.4375,-321.75,34.0625,-1.442871,0.777832,3.275879,-0.1113281,0.08544922,-0.2246094
200995,37.3125,-310.9375,30.75,-1.668945,0.8442383,3.399414,-0.1176758,0.08398438,-0.2216797
200997,20.625,-304.875,26.8125,-1.980469,0.9101563,3.395508,-0.1269531,0.08251953,-0.2163086
200998,4.875,-300.875,20.9375,-2.256836,0.9331055,3.349121,-0.1269531,0.08251953,-0.2163086
201000,-3.5,-299,14.125,-2.455566,0.8442383,3.233398,-0.1318359,0.08251953,-0.2124023
